LabVIEW Measurement	
Writer_Version	0.92
Reader_Version	1
Separator	Tab
Multi_Headings	Yes
X_Columns	No
Time_Pref	Relative
Operator	Administrator
Date	2008/03/18
Time	17:43:39.421875
***End_of_Header***	
	
Channels	1	
Samples	1000	
Date	2008/03/18	
Time	17:43:39.421875	
X_Dimension	Time	
X0	0.0000000000000000E+0	
Delta_X	1.000000	
***End_of_Header***		
X_Value	Untitled	Comment
	-0.000178
	-0.000218
	-0.000148
	-0.000281
	-0.000179
	-0.000218
	-0.000226
	-0.000154
	-0.000273
	-0.000184
	-0.000238
	-0.000303
	-0.000176
	-0.000286
	-0.000256
	-0.000211
	-0.000308
	-0.000214
	-0.000279
	-0.000248
	-0.000206
	-0.000318
	-0.000219
	-0.000306
	-0.000273
	-0.000198
	-0.000338
	-0.000228
	-0.000289
	-0.000299
	-0.000221
	-0.000318
	-0.000216
	-0.000288
	-0.000314
	-0.000221
	-0.000286
	-0.000218
	-0.000279
	-0.000326
	-0.000194
	-0.000336
	-0.000216
	-0.000221
	-0.000278
	-0.000234
	-0.000309
	-0.000224
	-0.000276
	-0.000308
	-0.000231
	-0.000296
	-0.000231
	-0.000281
	-0.000301
	-0.000238
	-0.000313
	-0.000228
	-0.000251
	-0.000334
	-0.000209
	-0.000306
	-0.000273
	-0.000253
	-0.000303
	-0.000239
	-0.000308
	-0.000234
	-0.000244
	-0.000326
	-0.000234
	-0.000319
	-0.000303
	-0.000216
	-0.000308
	-0.000224
	-0.000308
	-0.000258
	-0.000231
	-0.000273
	-0.000209
	-0.000321
	-0.000306
	-0.000244
	-0.000326
	-0.000239
	-0.000279
	-0.000301
	-0.000238
	-0.000293
	-0.000216
	-0.000304
	-0.000273
	-0.000244
	-0.000281
	-0.000248
	-0.000273
	-0.000281
	-0.000214
	-0.000289
	-0.000191
	-0.000249
	-0.000263
	-0.000213
	-0.000223
	-0.000219
	-0.000243
	-0.000253
	-0.000243
	-0.000269
	-0.000238
	-0.000224
	-0.000289
	-0.000248
	-0.000308
	-0.000233
	-0.000239
	-0.000328
	-0.000246
	-0.000269
	-0.000278
	-0.000256
	-0.000319
	-0.000249
	-0.000296
	-0.000258
	-0.000238
	-0.000306
	-0.000251
	-0.000269
	-0.000266
	-0.000229
	-0.000316
	-0.000256
	-0.000268
	-0.000274
	-0.000269
	-0.000299
	-0.000226
	-0.000283
	-0.000261
	-0.000239
	-0.000294
	-0.000271
	-0.000266
	-0.000296
	-0.000249
	-0.000268
	-0.000283
	-0.000274
	-0.000266
	-0.000266
	-0.000258
	-0.000246
	-0.000273
	-0.000288
	-0.000271
	-0.000306
	-0.000283
	-0.000268
	-0.000293
	-0.000268
	-0.000316
	-0.000283
	-0.000258
	-0.000263
	-0.000278
	-0.000283
	-0.000274
	-0.000253
	-0.000293
	-0.000259
	-0.000321
	-0.000323
	-0.000286
	-0.000309
	-0.000269
	-0.000291
	-0.000319
	-0.000276
	-0.000279
	-0.000281
	-0.000269
	-0.000314
	-0.000261
	-0.000241
	-0.000301
	-0.000254
	-0.000294
	-0.000273
	-0.000266
	-0.000286
	-0.000276
	-0.000321
	-0.000259
	-0.000239
	-0.000306
	-0.000298
	-0.000314
	-0.000303
	-0.000283
	-0.000291
	-0.000301
	-0.000323
	-0.000259
	-0.000253
	-0.000314
	-0.000279
	-0.000328
	-0.000316
	-0.000291
	-0.000316
	-0.000301
	-0.000351
	-0.000303
	-0.000271
	-0.000284
	-0.000356
	-0.000301
	-0.000286
	-0.000328
	-0.000328
	-0.000274
	-0.000343
	-0.000316
	-0.000253
	-0.000323
	-0.000253
	-0.000328
	-0.000356
	-0.000276
	-0.000338
	-0.000318
	-0.000318
	-0.000361
	-0.000249
	-0.000326
	-0.000253
	-0.000296
	-0.000341
	-0.000301
	-0.000313
	-0.000276
	-0.000279
	-0.000336
	-0.000248
	-0.000319
	-0.000349
	-0.000243
	-0.000323
	-0.000256
	-0.000283
	-0.000316
	-0.000274
	-0.000354
	-0.000283
	-0.000363
	-0.000324
	-0.000258
	-0.000371
	-0.000286
	-0.000306
	-0.000308
	-0.000256
	-0.000374
	-0.000254
	-0.000301
	-0.000326
	-0.000283
	-0.000361
	-0.000258
	-0.000301
	-0.000338
	-0.000261
	-0.000374
	-0.000261
	-0.000316
	-0.000314
	-0.000278
	-0.000351
	-0.000283
	-0.000296
	-0.000354
	-0.000293
	-0.000346
	-0.000284
	-0.000281
	-0.000348
	-0.000243
	-0.000371
	-0.000291
	-0.000279
	-0.000356
	-0.000281
	-0.000363
	-0.000291
	-0.000273
	-0.000376
	-0.000269
	-0.000378
	-0.000303
	-0.000239
	-0.000363
	-0.000251
	-0.000323
	-0.000296
	-0.000249
	-0.000351
	-0.000248
	-0.000364
	-0.000289
	-0.000228
	-0.000368
	-0.000249
	-0.000348
	-0.000319
	-0.000258
	-0.000378
	-0.000273
	-0.000321
	-0.000313
	-0.000293
	-0.000371
	-0.000279
	-0.000313
	-0.000304
	-0.000228
	-0.000339
	-0.000273
	-0.000306
	-0.000341
	-0.000243
	-0.000358
	-0.000273
	-0.000304
	-0.000321
	-0.000226
	-0.000359
	-0.000271
	-0.000291
	-0.000328
	-0.000259
	-0.000369
	-0.000296
	-0.000301
	-0.000334
	-0.000266
	-0.000354
	-0.000301
	-0.000311
	-0.000343
	-0.000273
	-0.000354
	-0.000316
	-0.000289
	-0.000363
	-0.000294
	-0.000361
	-0.000311
	-0.000271
	-0.000366
	-0.000271
	-0.000356
	-0.000311
	-0.000298
	-0.000369
	-0.000299
	-0.000354
	-0.000323
	-0.000306
	-0.000351
	-0.000274
	-0.000376
	-0.000348
	-0.000268
	-0.000353
	-0.000271
	-0.000341
	-0.000344
	-0.000253
	-0.000366
	-0.000279
	-0.000361
	-0.000329
	-0.000298
	-0.000389
	-0.000309
	-0.000359
	-0.000343
	-0.000314
	-0.000371
	-0.000291
	-0.000329
	-0.000361
	-0.000316
	-0.000378
	-0.000331
	-0.000333
	-0.000356
	-0.000299
	-0.000326
	-0.000333
	-0.000289
	-0.000364
	-0.000283
	-0.000353
	-0.000291
	-0.000301
	-0.000368
	-0.000274
	-0.000366
	-0.000286
	-0.000294
	-0.000378
	-0.000321
	-0.000384
	-0.000368
	-0.000258
	-0.000346
	-0.000313
	-0.000323
	-0.000313
	-0.000303
	-0.000349
	-0.000298
	-0.000371
	-0.000351
	-0.000304
	-0.000359
	-0.000289
	-0.000369
	-0.000354
	-0.000304
	-0.000363
	-0.000299
	-0.000351
	-0.000346
	-0.000298
	-0.000354
	-0.000279
	-0.000323
	-0.000299
	-0.000279
	-0.000329
	-0.000281
	-0.000293
	-0.000286
	-0.000308
	-0.000314
	-0.000268
	-0.000284
	-0.000304
	-0.000324
	-0.000333
	-0.000303
	-0.000289
	-0.000324
	-0.000279
	-0.000344
	-0.000286
	-0.000286
	-0.000323
	-0.000306
	-0.000338
	-0.000314
	-0.000264
	-0.000321
	-0.000343
	-0.000338
	-0.000314
	-0.000313
	-0.000301
	-0.000268
	-0.000288
	-0.000304
	-0.000271
	-0.000278
	-0.000281
	-0.000313
	-0.000294
	-0.000271
	-0.000313
	-0.000336
	-0.000316
	-0.000339
	-0.000328
	-0.000304
	-0.000298
	-0.000291
	-0.000313
	-0.000319
	-0.000266
	-0.000309
	-0.000309
	-0.000309
	-0.000341
	-0.000279
	-0.000331
	-0.000349
	-0.000383
	-0.000301
	-0.000304
	-0.000359
	-0.000316
	-0.000289
	-0.000301
	-0.000278
	-0.000299
	-0.000314
	-0.000298
	-0.000296
	-0.000299
	-0.000311
	-0.000298
	-0.000319
	-0.000304
	-0.000263
	-0.000303
	-0.000306
	-0.000298
	-0.000336
	-0.000293
	-0.000309
	-0.000329
	-0.000324
	-0.000363
	-0.000283
	-0.000329
	-0.000294
	-0.000319
	-0.000346
	-0.000289
	-0.000304
	-0.000309
	-0.000274
	-0.000343
	-0.000261
	-0.000331
	-0.000308
	-0.000253
	-0.000358
	-0.000268
	-0.000356
	-0.000334
	-0.000288
	-0.000371
	-0.000278
	-0.000346
	-0.000328
	-0.000289
	-0.000341
	-0.000261
	-0.000358
	-0.000351
	-0.000311
	-0.000343
	-0.000243
	-0.000333
	-0.000313
	-0.000276
	-0.000338
	-0.000316
	-0.000331
	-0.000328
	-0.000271
	-0.000341
	-0.000314
	-0.000324
	-0.000379
	-0.000268
	-0.000334
	-0.000299
	-0.000309
	-0.000363
	-0.000288
	-0.000416
	-0.000303
	-0.000294
	-0.000366
	-0.000306
	-0.000393
	-0.000344
	-0.000349
	-0.000401
	-0.000316
	-0.000359
	-0.000351
	-0.000324
	-0.000383
	-0.000331
	-0.000406
	-0.000394
	-0.000333
	-0.000434
	-0.000351
	-0.000373
	-0.000369
	-0.000318
	-0.000409
	-0.000323
	-0.000296
	-0.000231
	-0.000191
	-0.000283
	-0.000209
	-0.000268
	-0.000303
	-0.000206
	-0.000299
	-0.000241
	-0.000303
	-0.000254
	-0.000208
	-0.000324
	-0.000223
	-0.000313
	-0.000286
	-0.000193
	-0.000318
	-0.000244
	-0.000271
	-0.000271
	-0.000213
	-0.000269
	-0.000228
	-0.000269
	-0.000276
	-0.000189
	-0.000296
	-0.000221
	-0.000273
	-0.000296
	-0.000189
	-0.000283
	-0.000283
	-0.000244
	-0.000319
	-0.000196
	-0.000303
	-0.000266
	-0.000218
	-0.000308
	-0.000198
	-0.000321
	-0.000271
	-0.000231
	-0.000303
	-0.000198
	-0.000323
	-0.000248
	-0.000216
	-0.000331
	-0.000194
	-0.000306
	-0.000273
	-0.000236
	-0.000309
	-0.000209
	-0.000306
	-0.000271
	-0.000206
	-0.000338
	-0.000218
	-0.000248
	-0.000259
	-0.000208
	-0.000329
	-0.000249
	-0.000311
	-0.000294
	-0.000193
	-0.000326
	-0.000243
	-0.000291
	-0.000308
	-0.000213
	-0.000319
	-0.000256
	-0.000276
	-0.000309
	-0.000241
	-0.000343
	-0.000263
	-0.000316
	-0.000323
	-0.000253
	-0.000358
	-0.000248
	-0.000308
	-0.000306
	-0.000218
	-0.000318
	-0.000278
	-0.000281
	-0.000301
	-0.000239
	-0.000306
	-0.000256
	-0.000246
	-0.000303
	-0.000183
	-0.000289
	-0.000264
	-0.000251
	-0.000329
	-0.000214
	-0.000331
	-0.000261
	-0.000243
	-0.000321
	-0.000268
	-0.000304
	-0.000294
	-0.000229
	-0.000306
	-0.000221
	-0.000331
	-0.000294
	-0.000244
	-0.000318
	-0.000269
	-0.000299
	-0.000316
	-0.000264
	-0.000318
	-0.000259
	-0.000266
	-0.000316
	-0.000209
	-0.000298
	-0.000244
	-0.000266
	-0.000251
	-0.000238
	-0.000254
	-0.000228
	-0.000243
	-0.000318
	-0.000221
	-0.000284
	-0.000248
	-0.000286
	-0.000268
	-0.000248
	-0.000298
	-0.000246
	-0.000264
	-0.000329
	-0.000264
	-0.000289
	-0.000268
	-0.000273
	0.004621
	0.017916
	0.033855
	0.049798
	0.074583
	0.105860
	0.133877
	0.167703
	0.210393
	0.255516
	0.305089
	0.353728
	0.400168
	0.451830
	0.505400
	0.564957
	0.625768
	0.679595
	0.737526
	0.798121
	0.859611
	0.917726
	0.958229
	1.000607
	1.062012
	1.117574
	1.175270
	1.266326
	1.362925
	1.440377
	1.515625
	1.578069
	1.648264
	1.717457
	1.777106
	1.841765
	1.892108
	1.946775
	1.999811
	2.045267
	2.085362
	2.123845
	2.153364
	2.185491
	2.213169
	2.236140
	2.257671
	2.275590
	2.294352
	2.309714
	2.323646
	2.337691
	2.349637
	2.360991
	2.370159
	2.378663
	2.384461
	2.391667
	2.400056
	2.406987
	2.417096
	2.427569
	2.435067
	2.441835
	2.447431
	2.452985
	2.458463
	2.463999
	2.469329
	2.474951
	2.479703
	2.484190
	2.487518
	2.492622
	2.498063
	2.502692
	2.506850
	2.511236
	2.514831
	2.519202
	2.523052
	2.526658
	2.530600
	2.533850
	2.537569
	2.540711
	2.544031
	2.547270
	2.550211
	2.551765
	2.554130
	2.556577
	2.559736
	2.562729
	2.565246
	2.568900
	2.572842
	2.575673
	2.578473
	2.581369
	2.583967
	2.586510
	2.588992
	2.591345
	2.593862
	2.596463
	2.598847
	2.601018
	2.603642
	2.605607
	2.608004
	2.610022
	2.611917
	2.614332
	2.616053
	2.618341
	2.620371
	2.622217
	2.624289
	2.626177
	2.628187
	2.630066
	2.631500
	2.633144
	2.635036
	2.637158
	2.638978
	2.640818
	2.642624
	2.644334
	2.646083
	2.647777
	2.649417
	2.651113
	2.652812
	2.654557
	2.656131
	2.657615
	2.659377
	2.660796
	2.662260
	2.663739
	2.664748
	2.666597
	2.668269
	2.669691
	2.671258
	2.672473
	2.674260
	2.675609
	2.677016
	2.678487
	2.679902
	2.681436
	2.682782
	2.684148
	2.685633
	2.686919
	2.688341
	2.689634
	2.690785
	2.692137
	2.693424
	2.694868
	2.696232
	2.697496
	2.699017
	2.700106
	2.701329
	2.702608
	2.703632
	2.704979
	2.705974
	2.707268
	2.708597
	2.709616
	2.710989
	2.712061
	2.713110
	2.714258
	2.715379
	2.716555
	2.717622
	2.718735
	2.720044
	2.721040
	2.722184
	2.723097
	2.724219
	2.725295
	2.726304
	2.727430
	2.728686
	2.729627
	2.730580
	2.731779
	2.732850
	2.733959
	2.734973
	2.735939
	2.736890
	2.737971
	2.738962
	2.739638
	2.740741
	2.741867
	2.742979
	2.743922
	2.745001
	2.746034
	2.747001
	2.748004
	2.748953
	2.750077
	2.750842
	2.751671
	2.752699
	2.753617
	2.754604
	2.755643
	2.756396
	2.757347
	2.758328
	2.759194
	2.760224
	2.761006
	2.762140
	2.763058
	2.763808
	2.764779
	2.765548
	2.766541
	2.767443
	2.768361
	2.769274
	2.770090
	2.771054
	2.771775
	2.772676
	2.773544
	2.774360
	2.775293
	2.776097
	2.776947
	2.777774
	2.778565
	2.779455
	2.780199

