LabVIEW Measurement	
Writer_Version	0.92
Reader_Version	1
Separator	Tab
Multi_Headings	Yes
X_Columns	No
Time_Pref	Relative
Operator	Administrator
Date	2008/03/18
Time	17:42:33.734375
***End_of_Header***	
	
Channels	1	
Samples	1000	
Date	2008/03/18	
Time	17:42:33.734375	
X_Dimension	Time	
X0	0.0000000000000000E+0	
Delta_X	1.000000	
***End_of_Header***		
X_Value	Untitled	Comment
	-0.000138
	-0.000184
	-0.000143
	-0.000206
	-0.000188
	-0.000141
	-0.000246
	-0.000151
	-0.000183
	-0.000191
	-9.948009E-5
	-0.000221
	-0.000126
	-0.000184
	-0.000176
	-0.000133
	-0.000226
	-0.000139
	-0.000201
	-0.000228
	-0.000126
	-0.000249
	-0.000144
	-0.000166
	-0.000229
	-0.000148
	-0.000228
	-0.000153
	-0.000178
	-0.000218
	-0.000151
	-0.000273
	-0.000188
	-0.000179
	-0.000236
	-0.000178
	-0.000278
	-0.000184
	-0.000194
	-0.000234
	-0.000148
	-0.000246
	-0.000164
	-0.000186
	-0.000263
	-0.000156
	-0.000228
	-0.000158
	-0.000188
	-0.000234
	-0.000164
	-0.000253
	-0.000183
	-0.000158
	-0.000274
	-0.000161
	-0.000214
	-0.000218
	-0.000156
	-0.000293
	-0.000159
	-0.000253
	-0.000229
	-0.000198
	-0.000258
	-0.000171
	-0.000264
	-0.000248
	-0.000181
	-0.000271
	-0.000171
	-0.000254
	-0.000231
	-0.000183
	-0.000261
	-0.000188
	-0.000213
	-0.000224
	-0.000153
	-0.000263
	-0.000191
	-0.000236
	-0.000239
	-0.000131
	-0.000271
	-0.000173
	-0.000238
	-0.000226
	-0.000159
	-0.000258
	-0.000174
	-0.000223
	-0.000254
	-0.000168
	-0.000264
	-0.000211
	-0.000216
	-0.000233
	-0.000151
	-0.000246
	-0.000189
	-0.000203
	-0.000221
	-0.000124
	-0.000256
	-0.000198
	-0.000173
	-0.000271
	-0.000189
	-0.000274
	-0.000179
	-0.000199
	-0.000283
	-0.000186
	-0.000243
	-0.000234
	-0.000173
	-0.000279
	-0.000174
	-0.000244
	-0.000184
	-0.000216
	-0.000269
	-0.000189
	-0.000248
	-0.000231
	-0.000183
	-0.000253
	-0.000184
	-0.000249
	-0.000239
	-0.000134
	-0.000269
	-0.000216
	-0.000251
	-0.000224
	-0.000173
	-0.000243
	-0.000161
	-0.000238
	-0.000264
	-0.000194
	-0.000256
	-0.000189
	-0.000241
	-0.000264
	-0.000228
	-0.000269
	-0.000208
	-0.000251
	-0.000274
	-0.000219
	-0.000243
	-0.000229
	-0.000233
	-0.000249
	-0.000221
	-0.000268
	-0.000213
	-0.000228
	-0.000281
	-0.000223
	-0.000273
	-0.000201
	-0.000238
	-0.000248
	-0.000231
	-0.000236
	-0.000228
	-0.000211
	-0.000269
	-0.000213
	-0.000261
	-0.000226
	-0.000191
	-0.000229
	-0.000216
	-0.000234
	-0.000231
	-0.000231
	-0.000218
	-0.000266
	-0.000226
	-0.000268
	-0.000189
	-0.000231
	-0.000226
	-0.000253
	-0.000268
	-0.000209
	-0.000251
	-0.000236
	-0.000216
	-0.000271
	-0.000186
	-0.000218
	-0.000256
	-0.000236
	-0.000253
	-0.000243
	-0.000231
	-0.000248
	-0.000231
	-0.000271
	-0.000249
	-0.000206
	-0.000209
	-0.000234
	-0.000229
	-0.000236
	-0.000208
	-0.000276
	-0.000253
	-0.000253
	-0.000186
	-0.000224
	-0.000226
	-0.000246
	-0.000216
	-0.000234
	-0.000221
	-0.000258
	-0.000261
	-0.000234
	-0.000268
	-0.000236
	-0.000213
	-0.000228
	-0.000248
	-0.000246
	-0.000224
	-0.000291
	-0.000254
	-0.000211
	-0.000254
	-0.000228
	-0.000261
	-0.000264
	-0.000189
	-0.000241
	-0.000228
	-0.000239
	-0.000234
	-0.000229
	-0.000249
	-0.000226
	-0.000286
	-0.000253
	-0.000221
	-0.000271
	-0.000238
	-0.000266
	-0.000316
	-0.000218
	-0.000263
	-0.000248
	-0.000249
	-0.000301
	-0.000209
	-0.000268
	-0.000246
	-0.000244
	-0.000293
	-0.000239
	-0.000251
	-0.000229
	-0.000248
	-0.000224
	-0.000216
	-0.000238
	-0.000219
	-0.000249
	-0.000286
	-0.000204
	-0.000276
	-0.000248
	-0.000229
	-0.000284
	-0.000184
	-0.000241
	-0.000254
	-0.000238
	-0.000273
	-0.000196
	-0.000269
	-0.000238
	-0.000224
	-0.000293
	-0.000183
	-0.000278
	-0.000246
	-0.000199
	-0.000258
	-0.000226
	-0.000251
	-0.000248
	-0.000194
	-0.000268
	-0.000244
	-0.000259
	-0.000248
	-0.000209
	-0.000303
	-0.000226
	-0.000246
	-0.000289
	-0.000208
	-0.000274
	-0.000176
	-0.000274
	-0.000279
	-0.000199
	-0.000264
	-0.000211
	-0.000236
	-0.000308
	-0.000226
	-0.000281
	-0.000241
	-0.000236
	-0.000278
	-0.000248
	-0.000258
	-0.000226
	-0.000251
	-0.000286
	-0.000238
	-0.000284
	-0.000258
	-0.000279
	-0.000324
	-0.000206
	-0.000338
	-0.000256
	-0.000258
	-0.000306
	-0.000271
	-0.000276
	-0.000233
	-0.000253
	-0.000304
	-0.000214
	-0.000314
	-0.000251
	-0.000236
	-0.000293
	-0.000181
	-0.000301
	-0.000253
	-0.000223
	-0.000333
	-0.000201
	-0.000314
	-0.000296
	-0.000211
	-0.000296
	-0.000203
	-0.000298
	-0.000268
	-0.000183
	-0.000293
	-0.000199
	-0.000281
	-0.000323
	-0.000211
	-0.000321
	-0.000209
	-0.000284
	-0.000269
	-0.000213
	-0.000296
	-0.000191
	-0.000266
	-0.000273
	-0.000229
	-0.000343
	-0.000251
	-0.000268
	-0.000281
	-0.000221
	-0.000339
	-0.000218
	-0.000231
	-0.000264
	-0.000206
	-0.000284
	-0.000231
	-0.000231
	-0.000279
	-0.000214
	-0.000264
	-0.000261
	-0.000234
	-0.000318
	-0.000224
	-0.000318
	-0.000273
	-0.000228
	-0.000316
	-0.000229
	-0.000281
	-0.000288
	-0.000238
	-0.000308
	-0.000219
	-0.000301
	-0.000259
	-0.000226
	-0.000354
	-0.000246
	-0.000316
	-0.000284
	-0.000236
	-0.000336
	-0.000223
	-0.000288
	-0.000279
	-0.000196
	-0.000313
	-0.000249
	-0.000269
	-0.000286
	-0.000209
	-0.000283
	-0.000228
	-0.000274
	-0.000278
	-0.000246
	-0.000304
	-0.000223
	-0.000313
	-0.000271
	-0.000193
	-0.000286
	-0.000223
	-0.000256
	-0.000286
	-0.000258
	-0.000271
	-0.000221
	-0.000243
	-0.000289
	-0.000273
	-0.000298
	-0.000226
	-0.000286
	-0.000298
	-0.000284
	-0.000296
	-0.000248
	-0.000258
	-0.000308
	-0.000268
	-0.000318
	-0.000274
	-0.000268
	-0.000306
	-0.000273
	-0.000284
	-0.000291
	-0.000288
	-0.000294
	-0.000279
	-0.000326
	-0.000264
	-0.000249
	-0.000313
	-0.000259
	-0.000318
	-0.000274
	-0.000243
	-0.000306
	-0.000216
	-0.000284
	-0.000294
	-0.000266
	-0.000264
	-0.000271
	-0.000273
	-0.000281
	-0.000258
	-0.000303
	-0.000254
	-0.000293
	-0.000289
	-0.000271
	-0.000289
	-0.000293
	-0.000278
	-0.000293
	-0.000283
	-0.000276
	-0.000306
	-0.000298
	-0.000304
	-0.000268
	-0.000298
	-0.000281
	-0.000269
	-0.000288
	-0.000293
	-0.000289
	-0.000271
	-0.000298
	-0.000286
	-0.000293
	-0.000273
	-0.000316
	-0.000289
	-0.000308
	-0.000283
	-0.000279
	-0.000309
	-0.000236
	-0.000289
	-0.000271
	-0.000303
	-0.000294
	-0.000246
	-0.000299
	-0.000271
	-0.000294
	-0.000309
	-0.000263
	-0.000259
	-0.000241
	-0.000229
	-0.000266
	-0.000289
	-0.000281
	-0.000264
	-0.000301
	-0.000299
	-0.000264
	-0.000273
	-0.000251
	-0.000238
	-0.000271
	-0.000283
	-0.000261
	-0.000273
	-0.000283
	-0.000299
	-0.000291
	-0.000243
	-0.000298
	-0.000278
	-0.000291
	-0.000299
	-0.000261
	-0.000326
	-0.000303
	-0.000306
	-0.000323
	-0.000298
	-0.000318
	-0.000304
	-0.000269
	-0.000294
	-0.000271
	-0.000293
	-0.000266
	-0.000274
	-0.000316
	-0.000281
	-0.000314
	-0.000276
	-0.000259
	-0.000336
	-0.000248
	-0.000336
	-0.000333
	-0.000306
	-0.000321
	-0.000281
	-0.000314
	-0.000288
	-0.000303
	-0.000329
	-0.000276
	-0.000344
	-0.000308
	-0.000273
	-0.000366
	-0.000261
	-0.000323
	-0.000328
	-0.000293
	-0.000334
	-0.000301
	-0.000329
	-0.000316
	-0.000286
	-0.000358
	-0.000298
	-0.000344
	-0.000361
	-0.000291
	-0.000359
	-0.000304
	-0.000299
	-0.000243
	-0.000204
	-0.000319
	-0.000214
	-0.000236
	-0.000288
	-0.000203
	-0.000314
	-0.000216
	-0.000274
	-0.000256
	-0.000211
	-0.000276
	-0.000189
	-0.000226
	-0.000244
	-0.000184
	-0.000294
	-0.000181
	-0.000193
	-0.000248
	-0.000161
	-0.000268
	-0.000239
	-0.000259
	-0.000336
	-0.000204
	-0.000359
	-0.000199
	-0.000189
	-0.000269
	-0.000183
	-0.000284
	-0.000269
	-0.000231
	-0.000271
	-0.000168
	-0.000251
	-0.000256
	-0.000224
	-0.000313
	-0.000184
	-0.000276
	-0.000304
	-0.000233
	-0.000291
	-0.000163
	-0.000293
	-0.000239
	-0.000174
	-0.000274
	-0.000206
	-0.000318
	-0.000293
	-0.000163
	-0.000273
	-0.000249
	-0.000323
	-0.000264
	-0.000193
	-0.000308
	-0.000238
	-0.000248
	-0.000248
	-0.000223
	-0.000301
	-0.000204
	-0.000229
	-0.000261
	-0.000216
	-0.000239
	-0.000153
	-0.000233
	-0.000296
	-0.000206
	-0.000286
	-0.000206
	-0.000246
	-0.000249
	-0.000256
	-0.000288
	-0.000181
	-0.000221
	-0.000311
	-0.000208
	-0.000254
	-0.000229
	-0.000216
	-0.000294
	-0.000229
	-0.000281
	-0.000251
	-0.000233
	-0.000286
	-0.000216
	-0.000241
	-0.000248
	-0.000214
	-0.000241
	-0.000196
	-0.000221
	-0.000249
	-0.000176
	-0.000291
	-0.000169
	-0.000278
	-0.000213
	-0.000211
	-0.000219
	-0.000179
	-0.000231
	-0.000239
	-0.000189
	-0.000248
	-0.000206
	-0.000224
	-0.000224
	-0.000176
	-0.000246
	-0.000164
	-0.000223
	-0.000226
	-0.000216
	-0.000238
	-0.000186
	-0.000236
	-0.000224
	-0.000184
	-0.000254
	-0.000164
	-0.000231
	-0.000211
	-0.000204
	-0.000204
	-0.000213
	-0.000171
	-0.000231
	-0.000188
	-0.000248
	-0.000233
	-0.000196
	-0.000269
	-0.000213
	-0.000249
	-0.000238
	-0.000186
	-0.000246
	-0.000251
	-0.000259
	-0.000229
	-0.000263
	0.001340
	0.011411
	0.025834
	0.043904
	0.055853
	0.075347
	0.099155
	0.125663
	0.165263
	0.217428
	0.267874
	0.315752
	0.367250
	0.425099
	0.474937
	0.530085
	0.588472
	0.643221
	0.694358
	0.754622
	0.812053
	0.873564
	0.938448
	0.995444
	1.055319
	1.116484
	1.181096
	1.242979
	1.310054
	1.384923
	1.457974
	1.528483
	1.591961
	1.655914
	1.723383
	1.785370
	1.841803
	1.874735
	1.918172
	1.968127
	2.017264
	2.064175
	2.116398
	2.158177
	2.191225
	2.218755
	2.240480
	2.261856
	2.280808
	2.297463
	2.312474
	2.325391
	2.338537
	2.350645
	2.362017
	2.372641
	2.381227
	2.390448
	2.399210
	2.407016
	2.414358
	2.421423
	2.428593
	2.435115
	2.441853
	2.447216
	2.453250
	2.459011
	2.464522
	2.470157
	2.474042
	2.477330
	2.481663
	2.486527
	2.491175
	2.496801
	2.501739
	2.507229
	2.511954
	2.515881
	2.519776
	2.523798
	2.526966
	2.530482
	2.534179
	2.537454
	2.540996
	2.544249
	2.547457
	2.550411
	2.553712
	2.556938
	2.559943
	2.562754
	2.565624
	2.568656
	2.571368
	2.573971
	2.576844
	2.579394
	2.581922
	2.584569
	2.586960
	2.589667
	2.592003
	2.594428
	2.596938
	2.598950
	2.601485
	2.603775
	2.606028
	2.608198
	2.610307
	2.612500
	2.614489
	2.616517
	2.618693
	2.620546
	2.622788
	2.624713
	2.626775
	2.628652
	2.630374
	2.632358
	2.634291
	2.635909
	2.637872
	2.639706
	2.641600
	2.643270
	2.645070
	2.646937
	2.648550
	2.650292
	2.651969
	2.653556
	2.655158
	2.656701
	2.658523
	2.660090
	2.661507
	2.663332
	2.664731
	2.666314
	2.667904
	2.669272
	2.670960
	2.672271
	2.673810
	2.675234
	2.676598
	2.678190
	2.679489
	2.681023
	2.682384
	2.683646
	2.685270
	2.686444
	2.688037
	2.689359
	2.690570
	2.692017
	2.693188
	2.694379
	2.695854
	2.697093
	2.698419
	2.699635
	2.700981
	2.702147
	2.703366
	2.704606
	2.705739
	2.707068
	2.708254
	2.709470
	2.710647
	2.711858
	2.713057
	2.714301
	2.715460
	2.716741
	2.717737
	2.719024
	2.720152
	2.721070
	2.722252
	2.723341
	2.724516
	2.725631
	2.726557
	2.727808
	2.728738
	2.729890
	2.731069
	2.732000
	2.733089
	2.734104
	2.735190
	2.736257
	2.737217
	2.738296
	2.739307
	2.740423
	2.741454
	2.742348
	2.743357
	2.744268
	2.745417
	2.746408
	2.747273
	2.748380
	2.749326
	2.750382
	2.751351
	2.752211
	2.753257
	2.754209
	2.755152
	2.756018
	2.756854
	2.757837
	2.758826
	2.759727
	2.760683
	2.761421
	2.762380
	2.763236
	2.764109
	2.764945
	2.765790
	2.766880
	2.767667
	2.768646
	2.769522
	2.770365
	2.771362
	2.772145
	2.773009
	2.773900
	2.774781
	2.775641
	2.776447
	2.777355
	2.778196
	2.778952
	2.779808
	2.780569

